trial_no,cue1,cue2,cue3,shape,hemifield,no_of_targets,no_of_events,response_key,response_time,latest_probe_onset,latest_probe_location,latest_probe_side,event_id
1.000000000000000,11.000000000000000,8.000000000000000,5.000000000000000,Broad,Right,1.000000000000000,3.000000000000000,space,301.521353551999994,NaN,14.000000000000000,L,4.000000000000000
1.000000000000000,11.000000000000000,8.000000000000000,5.000000000000000,Broad,Right,1.000000000000000,3.000000000000000,space,304.073803508000026,NaN,14.000000000000000,L,8.000000000000000
1.000000000000000,11.000000000000000,8.000000000000000,5.000000000000000,Broad,Right,1.000000000000000,3.000000000000000,RightArrow,311.196626481000010,310.619801827000003,0.000000000000000,,18.000000000000000
2.000000000000000,11.000000000000000,8.000000000000000,5.000000000000000,Broad,Right,2.000000000000000,2.000000000000000,LeftArrow,316.538967868999976,315.942052918999991,8.000000000000000,R,24.000000000000000
2.000000000000000,11.000000000000000,8.000000000000000,5.000000000000000,Broad,Right,2.000000000000000,2.000000000000000,RightArrow,318.994974239999976,318.358860889000027,0.000000000000000,,27.000000000000000
3.000000000000000,11.000000000000000,8.000000000000000,5.000000000000000,Broad,Right,2.000000000000000,2.000000000000000,RightArrow,323.994993851000004,323.495991236999998,11.000000000000000,L,33.000000000000000
3.000000000000000,11.000000000000000,8.000000000000000,5.000000000000000,Broad,Right,2.000000000000000,2.000000000000000,LeftArrow,325.954973347000021,325.263963021999984,0.000000000000000,,36.000000000000000
4.000000000000000,11.000000000000000,8.000000000000000,5.000000000000000,Broad,Right,1.000000000000000,2.000000000000000,RightArrow,333.578964450999990,332.902930070000025,0.000000000000000,,44.000000000000000
5.000000000000000,26.000000000000000,NaN,NaN,Single,Left,2.000000000000000,2.000000000000000,space,337.463365188000012,NaN,26.000000000000000,L,49.000000000000000
5.000000000000000,26.000000000000000,NaN,NaN,Single,Left,2.000000000000000,2.000000000000000,LeftArrow,342.035073420999993,341.409180791999972,26.000000000000000,R,55.000000000000000
5.000000000000000,26.000000000000000,NaN,NaN,Single,Left,2.000000000000000,2.000000000000000,RightArrow,344.978953859000001,344.361482412999976,0.000000000000000,,58.000000000000000
6.000000000000000,26.000000000000000,NaN,NaN,Single,Left,4.000000000000000,4.000000000000000,RightArrow,348.298975036000002,347.680455750000021,26.000000000000000,R,64.000000000000000
6.000000000000000,26.000000000000000,NaN,NaN,Single,Left,4.000000000000000,4.000000000000000,RightArrow,350.114962982999998,349.548469329999989,26.000000000000000,L,67.000000000000000
6.000000000000000,26.000000000000000,NaN,NaN,Single,Left,4.000000000000000,4.000000000000000,LeftArrow,351.363098090999983,350.515882173000023,26.000000000000000,R,70.000000000000000
6.000000000000000,26.000000000000000,NaN,NaN,Single,Left,4.000000000000000,4.000000000000000,RightArrow,352.570971102999977,351.866840984000021,26.000000000000000,R,73.000000000000000
7.000000000000000,26.000000000000000,NaN,NaN,Single,Left,2.000000000000000,4.000000000000000,RightArrow,355.227071947000013,354.719085613999994,23.000000000000000,L,79.000000000000000
7.000000000000000,26.000000000000000,NaN,NaN,Single,Left,2.000000000000000,4.000000000000000,LeftArrow,357.826983837000000,357.204140086999985,17.000000000000000,L,84.000000000000000
7.000000000000000,26.000000000000000,NaN,NaN,Single,Left,2.000000000000000,4.000000000000000,RightArrow,357.954979262999984,357.204140086999985,17.000000000000000,L,85.000000000000000
8.000000000000000,26.000000000000000,NaN,NaN,Single,Left,2.000000000000000,3.000000000000000,RightArrow,364.178968924999992,363.642345940999974,23.000000000000000,L,93.000000000000000
8.000000000000000,26.000000000000000,NaN,NaN,Single,Left,2.000000000000000,3.000000000000000,LeftArrow,365.930963167000016,365.276813060999984,26.000000000000000,R,96.000000000000000
8.000000000000000,26.000000000000000,NaN,NaN,Single,Left,2.000000000000000,3.000000000000000,RightArrow,367.418977247999976,366.844613508999998,0.000000000000000,,100.000000000000000
9.000000000000000,11.000000000000000,8.000000000000000,NaN,Narrow,Right,3.000000000000000,3.000000000000000,space,372.855436107000003,NaN,8.000000000000000,R,104.000000000000000
9.000000000000000,11.000000000000000,8.000000000000000,NaN,Narrow,Right,3.000000000000000,3.000000000000000,space,376.325498680999999,NaN,8.000000000000000,R,108.000000000000000
9.000000000000000,11.000000000000000,8.000000000000000,NaN,Narrow,Right,3.000000000000000,3.000000000000000,RightArrow,380.610957437000025,380.037619940000013,8.000000000000000,R,114.000000000000000
9.000000000000000,11.000000000000000,8.000000000000000,NaN,Narrow,Right,3.000000000000000,3.000000000000000,RightArrow,382.274965375000022,381.638770702999977,11.000000000000000,R,117.000000000000000
9.000000000000000,11.000000000000000,8.000000000000000,NaN,Narrow,Right,3.000000000000000,3.000000000000000,RightArrow,383.442947756000024,382.672978490999981,0.000000000000000,,120.000000000000000
11.000000000000000,11.000000000000000,8.000000000000000,NaN,Narrow,Right,4.000000000000000,4.000000000000000,LeftArrow,396.163086905000000,395.615809656000010,8.000000000000000,R,131.000000000000000
11.000000000000000,11.000000000000000,8.000000000000000,NaN,Narrow,Right,4.000000000000000,4.000000000000000,RightArrow,397.282951661000027,396.649920067999972,8.000000000000000,R,134.000000000000000
11.000000000000000,11.000000000000000,8.000000000000000,NaN,Narrow,Right,4.000000000000000,4.000000000000000,LeftArrow,399.418967833000011,398.467952645000025,8.000000000000000,R,137.000000000000000
11.000000000000000,11.000000000000000,8.000000000000000,NaN,Narrow,Right,4.000000000000000,4.000000000000000,RightArrow,400.306956135000007,399.685578605999979,8.000000000000000,R,140.000000000000000
12.000000000000000,11.000000000000000,8.000000000000000,NaN,Narrow,Right,3.000000000000000,4.000000000000000,LeftArrow,404.058968386999993,402.721085354000024,2.000000000000000,L,146.000000000000000
12.000000000000000,11.000000000000000,8.000000000000000,NaN,Narrow,Right,3.000000000000000,4.000000000000000,LeftArrow,406.810965527999997,405.840003486999990,8.000000000000000,R,151.000000000000000
13.000000000000000,20.000000000000000,23.000000000000000,NaN,Narrow,Left,4.000000000000000,4.000000000000000,space,411.863668168999993,NaN,23.000000000000000,L,158.000000000000000
13.000000000000000,20.000000000000000,23.000000000000000,NaN,Narrow,Left,4.000000000000000,4.000000000000000,LeftArrow,415.219081045999985,414.629822572000023,23.000000000000000,L,164.000000000000000
13.000000000000000,20.000000000000000,23.000000000000000,NaN,Narrow,Left,4.000000000000000,4.000000000000000,LeftArrow,416.850953425000000,416.381083208999996,20.000000000000000,L,167.000000000000000
13.000000000000000,20.000000000000000,23.000000000000000,NaN,Narrow,Left,4.000000000000000,4.000000000000000,LeftArrow,418.387052499999982,417.765507750999973,23.000000000000000,L,170.000000000000000
14.000000000000000,20.000000000000000,23.000000000000000,NaN,Narrow,Left,4.000000000000000,4.000000000000000,RightArrow,422.610993469999983,421.968620900000019,23.000000000000000,L,178.000000000000000
14.000000000000000,20.000000000000000,23.000000000000000,NaN,Narrow,Left,4.000000000000000,4.000000000000000,LeftArrow,424.851088135999987,424.270293757999980,23.000000000000000,R,181.000000000000000
15.000000000000000,20.000000000000000,23.000000000000000,NaN,Narrow,Left,1.000000000000000,2.000000000000000,LeftArrow,431.506943412999988,430.825128068000026,26.000000000000000,R,191.000000000000000
